onset	duration	#	type	cat	block	trial	p2ans	p3ans	ansType	resp	conf	acc	rt
n/a	n/a	1	stay	scene	5	6	-1	-1	OLD	2	new-	0	7.01
n/a	n/a	2	stay	scene	6	18	-1	-1	OLD	3	NEW+	0	4
n/a	n/a	3	stay	scene	3	17	-1	-1	OLD	-3	OLD+	1	1.91
n/a	n/a	4	new	scene	0	0	0	1	NEW	2	new-	1	3.47
n/a	n/a	5	new	scene	0	0	0	1	NEW	3	NEW+	1	1.57
n/a	n/a	6	stay	scene	3	8	-1	-1	OLD	-3	OLD+	1	1.76
n/a	n/a	7	switch	scene	2	13	1	-1	OLD	-3	OLD+	1	0.95
n/a	n/a	8	stay	scene	6	3	-1	-1	OLD	-3	OLD+	1	3.09
n/a	n/a	9	new	scene	0	0	0	1	NEW	3	NEW+	1	2.15
n/a	n/a	10	new	scene	0	0	0	1	NEW	3	NEW+	1	2.44
n/a	n/a	11	stay	scene	2	16	-1	-1	OLD	-3	OLD+	1	1.1
n/a	n/a	12	stay	scene	5	14	-1	-1	OLD	-3	OLD+	1	2.19
n/a	n/a	13	new	scene	0	0	0	1	NEW	3	NEW+	1	2.92
n/a	n/a	14	stay	scene	3	4	-1	-1	OLD	-3	OLD+	1	1.8
n/a	n/a	15	stay	scene	1	8	-1	-1	OLD	2	new-	0	2.59
n/a	n/a	16	new	scene	0	0	0	1	NEW	2	new-	1	4.08
n/a	n/a	17	new	scene	0	0	0	1	NEW	2	new-	1	4.44
n/a	n/a	18	stay	scene	3	10	-1	-1	OLD	-2	old-	1	3.4
n/a	n/a	19	new	scene	0	0	0	1	NEW	3	NEW+	1	1.66
n/a	n/a	20	new	scene	0	0	0	1	NEW	2	new-	1	4.05
n/a	n/a	21	new	scene	0	0	0	1	NEW	3	NEW+	1	1.51
n/a	n/a	22	new	scene	0	0	0	1	NEW	2	new-	1	3.37
n/a	n/a	23	stay	scene	1	4	-1	-1	OLD	2	new-	0	3.34
n/a	n/a	24	switch	scene	3	14	1	-1	OLD	-3	OLD+	1	6.09
n/a	n/a	25	stay	scene	4	10	-1	-1	OLD	-3	OLD+	1	1.19
n/a	n/a	26	stay	scene	5	15	-1	-1	OLD	-3	OLD+	1	1.55
n/a	n/a	27	new	scene	0	0	0	1	NEW	2	new-	1	2.38
n/a	n/a	28	switch	scene	2	8	-1	-1	OLD	3	NEW+	0	1.8
n/a	n/a	29	switch	scene	5	2	-1	-1	OLD	-3	OLD+	1	1
n/a	n/a	30	stay	scene	6	11	-1	-1	OLD	-3	OLD+	1	1.04
n/a	n/a	31	new	scene	0	0	0	1	NEW	3	NEW+	1	1.63
n/a	n/a	32	switch	scene	6	17	-1	-1	OLD	2	new-	0	1.95
n/a	n/a	33	new	scene	0	0	0	1	NEW	-2	old-	0	1.33
n/a	n/a	34	switch	scene	3	15	-1	-1	OLD	3	NEW+	0	5.68
n/a	n/a	35	new	scene	0	0	0	1	NEW	3	NEW+	1	3.34
n/a	n/a	36	new	scene	0	0	0	1	NEW	3	NEW+	1	2.92
n/a	n/a	37	new	scene	0	0	0	1	NEW	2	new-	1	3.1
n/a	n/a	38	stay	scene	1	5	-1	-1	OLD	-3	OLD+	1	1.68
n/a	n/a	39	switch	scene	1	15	-1	-1	OLD	-3	OLD+	1	2.77
n/a	n/a	40	new	scene	0	0	0	1	NEW	2	new-	1	5.3
n/a	n/a	41	new	scene	0	0	0	1	NEW	2	new-	1	1.7
n/a	n/a	42	switch	scene	3	7	1	-1	OLD	-3	OLD+	1	0.99
n/a	n/a	43	switch	scene	4	14	1	-1	OLD	-3	OLD+	1	1.11
n/a	n/a	44	stay	scene	1	9	-1	-1	OLD	-3	OLD+	1	0.83
n/a	n/a	45	new	scene	0	0	0	1	NEW	-2	old-	0	3.18
n/a	n/a	46	new	scene	0	0	0	1	NEW	-2	old-	0	5.16
n/a	n/a	47	new	scene	0	0	0	1	NEW	3	NEW+	1	4.6
n/a	n/a	48	switch	scene	2	15	-1	-1	OLD	-2	old-	1	4.98
n/a	n/a	49	switch	scene	6	2	-1	-1	OLD	-3	OLD+	1	1.76
n/a	n/a	50	new	scene	0	0	0	1	NEW	3	NEW+	1	2.15
n/a	n/a	51	new	scene	0	0	0	1	NEW	2	new-	1	2.91
n/a	n/a	52	switch	scene	4	16	-1	-1	OLD	-2	old-	1	3.53
n/a	n/a	53	switch	scene	1	3	1	-1	OLD	3	NEW+	0	1.84
n/a	n/a	54	switch	scene	5	12	1	-1	OLD	-3	OLD+	1	1.32
n/a	n/a	55	stay	scene	6	8	-1	-1	OLD	-3	OLD+	1	1.36
n/a	n/a	56	switch	scene	4	6	-1	-1	OLD	-2	old-	1	4.18
n/a	n/a	57	new	scene	0	0	0	1	NEW	3	NEW+	1	1.37
n/a	n/a	58	new	scene	0	0	0	1	NEW	2	new-	1	7.59
n/a	n/a	59	stay	scene	2	10	-1	-1	OLD	3	NEW+	0	2.24
n/a	n/a	60	stay	scene	1	13	-1	-1	OLD	-3	OLD+	1	1.19
n/a	n/a	61	new	scene	0	0	0	1	NEW	2	new-	1	3
n/a	n/a	62	new	scene	0	0	0	1	NEW	3	NEW+	1	1.75
n/a	n/a	63	new	scene	0	0	0	1	NEW	3	NEW+	1	1.23
n/a	n/a	64	switch	scene	5	11	-1	-1	OLD	-3	OLD+	1	0.97
n/a	n/a	65	new	scene	0	0	0	1	NEW	3	NEW+	1	5.21
n/a	n/a	66	switch	scene	4	3	1	-1	OLD	-3	OLD+	1	0.9
n/a	n/a	67	stay	scene	6	16	-1	-1	OLD	-3	OLD+	1	1.47
n/a	n/a	68	new	scene	0	0	0	1	NEW	3	NEW+	1	0.94
n/a	n/a	69	switch	scene	5	5	1	-1	OLD	2	new-	0	6.01
n/a	n/a	70	new	scene	0	0	0	1	NEW	-2	old-	0	1.79
n/a	n/a	71	switch	scene	6	15	-1	-1	OLD	-3	OLD+	1	2.15
n/a	n/a	72	new	scene	0	0	0	1	NEW	3	NEW+	1	1.21
n/a	n/a	73	switch	scene	5	4	1	-1	OLD	-2	old-	1	6.01
n/a	n/a	74	new	scene	0	0	0	1	NEW	2	new-	1	6.6
n/a	n/a	75	switch	scene	1	7	1	-1	OLD	2	new-	0	2.12
n/a	n/a	76	new	scene	0	0	0	1	NEW	3	NEW+	1	2
n/a	n/a	77	new	scene	0	0	0	1	NEW	3	NEW+	1	1.65
n/a	n/a	78	switch	scene	6	9	1	-1	OLD	-3	OLD+	1	1.39
n/a	n/a	79	switch	scene	3	1	1	-1	OLD	-2	old-	1	6.16
n/a	n/a	80	new	scene	0	0	0	1	NEW	3	NEW+	1	4.79
n/a	n/a	81	switch	scene	6	10	1	-1	OLD	-3	OLD+	1	4.25
n/a	n/a	82	new	scene	0	0	0	1	NEW	2	new-	1	2.17
n/a	n/a	83	switch	scene	2	5	1	-1	OLD	3	NEW+	0	7.32
n/a	n/a	84	new	scene	0	0	0	1	NEW	3	NEW+	1	3.41
n/a	n/a	85	new	scene	0	0	0	1	NEW	-2	old-	0	3.36
n/a	n/a	86	stay	scene	3	18	-1	-1	OLD	3	NEW+	0	1.29
n/a	n/a	87	new	scene	0	0	0	1	NEW	3	NEW+	1	2.44
n/a	n/a	88	new	scene	0	0	0	1	NEW	3	NEW+	1	3.27
n/a	n/a	89	new	scene	0	0	0	1	NEW	3	NEW+	1	1.85
n/a	n/a	90	switch	scene	1	11	1	-1	OLD	-3	OLD+	1	1.43
n/a	n/a	91	new	scene	0	0	0	1	NEW	3	NEW+	1	7.23
n/a	n/a	92	new	scene	0	0	0	1	NEW	3	NEW+	1	1.85
n/a	n/a	93	new	scene	0	0	0	1	NEW	3	NEW+	1	1.7
n/a	n/a	94	new	scene	0	0	0	1	NEW	3	NEW+	1	1.65
n/a	n/a	95	stay	scene	5	7	-1	-1	OLD	-2	old-	1	2.37
n/a	n/a	96	new	scene	0	0	0	1	NEW	3	NEW+	1	2.83
n/a	n/a	97	new	scene	0	0	0	1	NEW	3	NEW+	1	2.54
n/a	n/a	98	stay	scene	4	4	-1	-1	OLD	2	new-	0	3.42
n/a	n/a	99	new	scene	0	0	0	1	NEW	3	NEW+	1	6.58
n/a	n/a	100	new	scene	0	0	0	1	NEW	3	NEW+	1	2.44
n/a	n/a	101	new	scene	0	0	0	1	NEW	2	new-	1	3.86
n/a	n/a	102	new	scene	0	0	0	1	NEW	3	NEW+	1	1.33
n/a	n/a	103	new	scene	0	0	0	1	NEW	2	new-	1	2.13
n/a	n/a	104	switch	scene	6	7	1	-1	OLD	2	new-	0	8.35
n/a	n/a	105	new	scene	0	0	0	1	NEW	3	NEW+	1	1.67
n/a	n/a	106	stay	scene	5	10	-1	-1	OLD	2	new-	0	6.06
n/a	n/a	107	stay	scene	2	2	-1	-1	OLD	3	NEW+	0	3.64
n/a	n/a	108	stay	scene	1	17	-1	-1	OLD	-2	old-	1	3.72
n/a	n/a	109	new	scene	0	0	0	1	NEW	2	new-	1	2.72
n/a	n/a	110	new	scene	0	0	0	1	NEW	3	NEW+	1	1.24
n/a	n/a	111	new	scene	0	0	0	1	NEW	2	new-	1	3.51
n/a	n/a	112	switch	scene	5	1	-1	-1	OLD	-3	OLD+	1	1.29
n/a	n/a	113	switch	scene	2	9	-1	-1	OLD	-3	OLD+	1	1.39
n/a	n/a	114	stay	scene	6	13	-1	-1	OLD	2	new-	0	5.81
n/a	n/a	115	stay	scene	4	15	-1	-1	OLD	-3	OLD+	1	4.69
n/a	n/a	116	switch	scene	4	11	-1	-1	OLD	2	new-	0	4.02
n/a	n/a	117	new	scene	0	0	0	1	NEW	3	NEW+	1	1.13
n/a	n/a	118	stay	scene	5	8	-1	-1	OLD	2	new-	0	6.13
n/a	n/a	119	new	scene	0	0	0	1	NEW	3	NEW+	1	1.71
n/a	n/a	120	stay	scene	2	4	-1	-1	OLD	2	new-	0	4.37
n/a	n/a	121	new	scene	0	0	0	1	NEW	2	new-	1	3.95
n/a	n/a	122	new	scene	0	0	0	1	NEW	2	new-	1	5.24
n/a	n/a	123	new	scene	0	0	0	1	NEW	3	NEW+	1	0.95
n/a	n/a	124	new	scene	0	0	0	1	NEW	2	new-	1	2.1
n/a	n/a	125	switch	scene	2	3	1	-1	OLD	-3	OLD+	1	3
n/a	n/a	126	switch	scene	4	2	1	-1	OLD	2	new-	0	3.16
n/a	n/a	127	switch	scene	1	18	-1	-1	OLD	-2	old-	1	3.35
n/a	n/a	128	stay	scene	2	7	-1	-1	OLD	-3	OLD+	1	0.94
n/a	n/a	129	new	scene	0	0	0	1	NEW	2	new-	1	1.81
n/a	n/a	130	new	scene	0	0	0	1	NEW	3	NEW+	1	4.42
n/a	n/a	131	new	scene	0	0	0	1	NEW	3	NEW+	1	2.43
n/a	n/a	132	new	scene	0	0	0	1	NEW	2	new-	1	2.01
n/a	n/a	133	stay	scene	4	8	-1	-1	OLD	-3	OLD+	1	1.38
n/a	n/a	134	switch	scene	1	12	-1	-1	OLD	-3	OLD+	1	1.12
n/a	n/a	135	new	scene	0	0	0	1	NEW	2	new-	1	2.32
n/a	n/a	136	stay	scene	2	11	-1	-1	OLD	-2	old-	1	6.38
n/a	n/a	137	new	scene	0	0	0	1	NEW	2	new-	1	3.12
n/a	n/a	138	stay	scene	3	12	-1	-1	OLD	3	NEW+	0	1.4
n/a	n/a	139	stay	scene	4	18	-1	-1	OLD	-3	OLD+	1	1.37
n/a	n/a	140	switch	scene	3	11	-1	-1	OLD	-3	OLD+	1	4.28
n/a	n/a	141	switch	scene	3	13	-1	-1	OLD	-3	OLD+	1	1.1
n/a	n/a	142	new	scene	0	0	0	1	NEW	2	new-	1	4.1
n/a	n/a	143	stay	scene	4	13	-1	-1	OLD	-2	old-	1	3.2
n/a	n/a	144	new	scene	0	0	0	1	NEW	3	NEW+	1	2.94
