onset	duration	#	type	cat	block	trial	p2ans	p3ans	ansType	resp	conf	acc	rt
n/a	n/a	1	new	scene	0	0	0	1	NEW	3	NEW+	1	3.01
n/a	n/a	2	new	scene	0	0	0	1	NEW	-2	old-	0	2.95
n/a	n/a	3	stay	scene	3	4	-1	-1	OLD	-3	OLD+	1	2.64
n/a	n/a	4	new	scene	0	0	0	1	NEW	2	new-	1	2.35
n/a	n/a	5	new	scene	0	0	0	1	NEW	-2	old-	0	1.85
n/a	n/a	6	stay	scene	1	17	-1	-1	OLD	-3	OLD+	1	2.17
n/a	n/a	7	new	scene	0	0	0	1	NEW	3	NEW+	1	2.98
n/a	n/a	8	stay	scene	1	11	-1	-1	OLD	-2	old-	1	2.19
n/a	n/a	9	stay	scene	1	4	-1	-1	OLD	-3	OLD+	1	2.51
n/a	n/a	10	new	scene	0	0	0	1	NEW	3	NEW+	1	2.28
n/a	n/a	11	stay	scene	5	4	-1	-1	OLD	-3	OLD+	1	1.7
n/a	n/a	12	stay	scene	1	1	-1	-1	OLD	-3	OLD+	1	1.57
n/a	n/a	13	new	scene	0	0	0	1	NEW	-2	old-	0	2.59
n/a	n/a	14	new	scene	0	0	0	1	NEW	2	new-	1	2.03
n/a	n/a	15	stay	scene	6	14	-1	-1	OLD	-3	OLD+	1	1.77
n/a	n/a	16	switch	scene	6	3	1	-1	OLD	-3	OLD+	1	1.5
n/a	n/a	17	switch	scene	3	7	-1	-1	OLD	-3	OLD+	1	1.78
n/a	n/a	18	switch	scene	5	14	1	-1	OLD	-3	OLD+	1	1.34
n/a	n/a	19	stay	scene	2	1	-1	-1	OLD	-2	old-	1	2.11
n/a	n/a	20	switch	scene	3	9	1	-1	OLD	-3	OLD+	1	1.22
n/a	n/a	21	new	scene	0	0	0	1	NEW	-2	old-	0	3.01
n/a	n/a	22	new	scene	0	0	0	1	NEW	2	new-	1	1.52
n/a	n/a	23	new	scene	0	0	0	1	NEW	3	NEW+	1	1.22
n/a	n/a	24	stay	scene	3	3	-1	-1	OLD	-3	OLD+	1	1.85
n/a	n/a	25	stay	scene	4	3	-1	-1	OLD	-3	OLD+	1	1.33
n/a	n/a	26	stay	scene	6	5	-1	-1	OLD	-3	OLD+	1	1.05
n/a	n/a	27	switch	scene	4	17	-1	-1	OLD	-3	OLD+	1	1.1
n/a	n/a	28	new	scene	0	0	0	1	NEW	2	new-	1	1.82
n/a	n/a	29	stay	scene	6	13	-1	-1	OLD	-3	OLD+	1	1.08
n/a	n/a	30	switch	scene	6	2	-1	-1	OLD	-3	OLD+	1	1.03
n/a	n/a	31	new	scene	0	0	0	1	NEW	2	new-	1	1.5
n/a	n/a	32	new	scene	0	0	0	1	NEW	3	NEW+	1	1.42
n/a	n/a	33	switch	scene	2	10	1	-1	OLD	-2	old-	1	1.73
n/a	n/a	34	switch	scene	1	15	1	-1	OLD	-3	OLD+	1	1.45
n/a	n/a	35	stay	scene	5	9	-1	-1	OLD	-3	OLD+	1	0.93
n/a	n/a	36	new	scene	0	0	0	1	NEW	-3	OLD+	0	2.02
n/a	n/a	37	switch	scene	6	4	1	-1	OLD	-3	OLD+	1	1.17
n/a	n/a	38	new	scene	0	0	0	1	NEW	2	new-	1	1.59
n/a	n/a	39	new	scene	0	0	0	1	NEW	-2	old-	0	1.41
n/a	n/a	40	new	scene	0	0	0	1	NEW	-2	old-	0	1.54
n/a	n/a	41	switch	scene	4	5	1	-1	OLD	-2	old-	1	1.65
n/a	n/a	42	switch	scene	1	5	1	-1	OLD	-3	OLD+	1	1.49
n/a	n/a	43	new	scene	0	0	0	1	NEW	2	new-	1	1.53
n/a	n/a	44	stay	scene	2	18	-1	-1	OLD	-3	OLD+	1	1.61
n/a	n/a	45	new	scene	0	0	0	1	NEW	2	new-	1	1.29
n/a	n/a	46	stay	scene	4	10	-1	-1	OLD	-3	OLD+	1	1.07
n/a	n/a	47	new	scene	0	0	0	1	NEW	-2	old-	0	2.3
n/a	n/a	48	new	scene	0	0	0	1	NEW	3	NEW+	1	1.23
n/a	n/a	49	stay	scene	3	8	-1	-1	OLD	-3	OLD+	1	1.55
n/a	n/a	50	new	scene	0	0	0	1	NEW	2	new-	1	2.04
n/a	n/a	51	new	scene	0	0	0	1	NEW	2	new-	1	1.36
n/a	n/a	52	new	scene	0	0	0	1	NEW	2	new-	1	1.97
n/a	n/a	53	new	scene	0	0	0	1	NEW	3	NEW+	1	1.06
n/a	n/a	54	new	scene	0	0	0	1	NEW	3	NEW+	1	1.01
n/a	n/a	55	switch	scene	2	3	1	-1	OLD	-3	OLD+	1	1.34
n/a	n/a	56	new	scene	0	0	0	1	NEW	2	new-	1	1.32
n/a	n/a	57	new	scene	0	0	0	1	NEW	2	new-	1	2.01
n/a	n/a	58	switch	scene	5	8	-1	-1	OLD	-3	OLD+	1	2.18
n/a	n/a	59	stay	scene	5	6	-1	-1	OLD	-3	OLD+	1	1.15
n/a	n/a	60	stay	scene	2	9	-1	-1	OLD	-3	OLD+	1	1.55
n/a	n/a	61	switch	scene	4	13	1	-1	OLD	2	new-	0	1.79
n/a	n/a	62	new	scene	0	0	0	1	NEW	2	new-	1	1.52
n/a	n/a	63	new	scene	0	0	0	1	NEW	3	NEW+	1	2.03
n/a	n/a	64	new	scene	0	0	0	1	NEW	2	new-	1	1.66
n/a	n/a	65	new	scene	0	0	0	1	NEW	3	NEW+	1	1.83
n/a	n/a	66	new	scene	0	0	0	1	NEW	2	new-	1	1.84
n/a	n/a	67	new	scene	0	0	0	1	NEW	3	NEW+	1	1.55
n/a	n/a	68	switch	scene	5	13	1	-1	OLD	-2	old-	1	2.38
n/a	n/a	69	new	scene	0	0	0	1	NEW	-2	old-	0	1.68
n/a	n/a	70	new	scene	0	0	0	1	NEW	2	new-	1	1.41
n/a	n/a	71	new	scene	0	0	0	1	NEW	3	NEW+	1	1.43
n/a	n/a	72	stay	scene	4	11	-1	-1	OLD	2	new-	0	1.4
n/a	n/a	73	stay	scene	3	11	-1	-1	OLD	2	new-	0	0.02
n/a	n/a	74	switch	scene	5	3	-1	-1	OLD	-3	OLD+	1	1.97
n/a	n/a	75	new	scene	0	0	0	1	NEW	-2	old-	0	1.58
n/a	n/a	76	switch	scene	6	12	-1	-1	OLD	-3	OLD+	1	1.47
n/a	n/a	77	switch	scene	5	1	1	-1	OLD	3	NEW+	0	1.08
n/a	n/a	78	new	scene	0	0	0	1	NEW	2	new-	1	1.27
n/a	n/a	79	switch	scene	2	6	-1	-1	OLD	2	new-	0	1.89
n/a	n/a	80	stay	scene	2	14	-1	-1	OLD	-2	old-	1	1.32
n/a	n/a	81	stay	scene	2	11	-1	-1	OLD	-3	OLD+	1	1.64
n/a	n/a	82	stay	scene	5	17	-1	-1	OLD	-3	OLD+	1	1.57
n/a	n/a	83	new	scene	0	0	0	1	NEW	-2	old-	0	1.83
n/a	n/a	84	stay	scene	4	7	-1	-1	OLD	-3	OLD+	1	1.56
n/a	n/a	85	switch	scene	3	5	1	-1	OLD	-3	OLD+	1	1.48
n/a	n/a	86	switch	scene	3	10	1	-1	OLD	-3	OLD+	1	1.04
n/a	n/a	87	switch	scene	1	9	-1	-1	OLD	-3	OLD+	1	0.92
n/a	n/a	88	new	scene	0	0	0	1	NEW	2	new-	1	1.89
n/a	n/a	89	new	scene	0	0	0	1	NEW	2	new-	1	1.29
n/a	n/a	90	switch	scene	3	14	-1	-1	OLD	-3	OLD+	1	1.44
n/a	n/a	91	switch	scene	2	13	-1	-1	OLD	-3	OLD+	1	1.43
n/a	n/a	92	switch	scene	1	6	-1	-1	OLD	-3	OLD+	1	1.98
n/a	n/a	93	new	scene	0	0	0	1	NEW	3	NEW+	1	1.12
n/a	n/a	94	switch	scene	1	3	-1	-1	OLD	2	new-	0	1.36
n/a	n/a	95	new	scene	0	0	0	1	NEW	3	NEW+	1	1.83
n/a	n/a	96	new	scene	0	0	0	1	NEW	2	new-	1	2.62
n/a	n/a	97	stay	scene	4	18	-1	-1	OLD	-3	OLD+	1	2.68
n/a	n/a	98	switch	scene	4	8	-1	-1	OLD	2	new-	0	1.07
n/a	n/a	99	new	scene	0	0	0	1	NEW	2	new-	1	2.79
n/a	n/a	100	new	scene	0	0	0	1	NEW	2	new-	1	1.14
n/a	n/a	101	stay	scene	6	15	-1	-1	OLD	-3	OLD+	1	1.44
n/a	n/a	102	stay	scene	6	8	-1	-1	OLD	-2	old-	1	1.38
n/a	n/a	103	new	scene	0	0	0	1	NEW	-2	old-	0	1.97
n/a	n/a	104	stay	scene	6	17	-1	-1	OLD	2	new-	0	1.47
n/a	n/a	105	new	scene	0	0	0	1	NEW	-3	OLD+	0	1.94
n/a	n/a	106	switch	scene	6	10	-1	-1	OLD	-3	OLD+	1	1.22
n/a	n/a	107	new	scene	0	0	0	1	NEW	2	new-	1	2.42
n/a	n/a	108	switch	scene	4	15	-1	-1	OLD	-3	OLD+	1	1.62
n/a	n/a	109	stay	scene	1	18	-1	-1	OLD	-2	old-	1	1.29
n/a	n/a	110	switch	scene	2	8	-1	-1	OLD	-3	OLD+	1	1.38
n/a	n/a	111	new	scene	0	0	0	1	NEW	2	new-	1	1.13
n/a	n/a	112	new	scene	0	0	0	1	NEW	2	new-	1	1.36
n/a	n/a	113	new	scene	0	0	0	1	NEW	-2	old-	0	1.93
n/a	n/a	114	new	scene	0	0	0	1	NEW	2	new-	1	1.27
n/a	n/a	115	new	scene	0	0	0	1	NEW	2	new-	1	1.21
n/a	n/a	116	new	scene	0	0	0	1	NEW	3	NEW+	1	1.06
n/a	n/a	117	new	scene	0	0	0	1	NEW	-2	old-	0	1.71
n/a	n/a	118	stay	scene	4	2	-1	-1	OLD	-3	OLD+	1	1.51
n/a	n/a	119	new	scene	0	0	0	1	NEW	2	new-	1	1.77
n/a	n/a	120	new	scene	0	0	0	1	NEW	3	NEW+	1	1.09
n/a	n/a	121	new	scene	0	0	0	1	NEW	3	NEW+	1	1.29
n/a	n/a	122	switch	scene	5	15	-1	-1	OLD	-3	OLD+	1	1.76
n/a	n/a	123	new	scene	0	0	0	1	NEW	3	NEW+	1	1.64
n/a	n/a	124	stay	scene	3	1	-1	-1	OLD	2	new-	0	1.3
n/a	n/a	125	stay	scene	3	13	-1	-1	OLD	-3	OLD+	1	1.19
n/a	n/a	126	new	scene	0	0	0	1	NEW	-2	old-	0	1.16
n/a	n/a	127	stay	scene	2	2	-1	-1	OLD	-3	OLD+	1	1.11
n/a	n/a	128	switch	scene	4	6	1	-1	OLD	-3	OLD+	1	1.12
n/a	n/a	129	stay	scene	5	12	-1	-1	OLD	-3	OLD+	1	0.88
n/a	n/a	130	stay	scene	5	16	-1	-1	OLD	-3	OLD+	1	0.85
n/a	n/a	131	new	scene	0	0	0	1	NEW	2	new-	1	1.69
n/a	n/a	132	new	scene	0	0	0	1	NEW	3	NEW+	1	1.48
n/a	n/a	133	new	scene	0	0	0	1	NEW	-2	old-	0	1.55
n/a	n/a	134	switch	scene	6	11	1	-1	OLD	-3	OLD+	1	1.07
n/a	n/a	135	new	scene	0	0	0	1	NEW	2	new-	1	1.59
n/a	n/a	136	stay	scene	1	12	-1	-1	OLD	3	NEW+	0	1.06
n/a	n/a	137	new	scene	0	0	0	1	NEW	2	new-	1	4.05
n/a	n/a	138	switch	scene	3	16	-1	-1	OLD	-3	OLD+	1	1.64
n/a	n/a	139	new	scene	0	0	0	1	NEW	2	new-	1	1.32
n/a	n/a	140	new	scene	0	0	0	1	NEW	2	new-	1	1.35
n/a	n/a	141	switch	scene	2	12	1	-1	OLD	-3	OLD+	1	1.15
n/a	n/a	142	new	scene	0	0	0	1	NEW	2	new-	1	1.17
n/a	n/a	143	switch	scene	1	2	1	-1	OLD	2	new-	0	1.34
n/a	n/a	144	new	scene	0	0	0	1	NEW	3	NEW+	1	1.76
